aX,aY,aZ,gX,gY,gZ
-0.387,-0.403,1.778,289.917,-132.202,37.109
-0.470,-0.442,1.677,330.444,-139.648,36.011
-0.542,-0.479,1.672,381.958,-150.696,34.607
-0.535,-0.403,1.548,431.946,-158.081,35.889
-0.552,-0.250,1.251,487.793,-163.513,42.725
-0.672,-0.075,0.836,560.181,-166.565,55.176
-0.913,0.020,0.387,646.057,-159.973,72.937
-1.187,-0.001,-0.003,730.286,-135.315,97.168
-1.380,-0.128,-0.272,796.570,-92.407,126.465
-1.529,-0.345,-0.383,828.064,-32.349,159.363
-1.584,-0.531,-0.410,822.571,31.738,195.251
-1.455,-0.578,-0.353,789.246,84.900,226.562
-1.242,-0.527,-0.312,745.667,111.938,249.451
-1.076,-0.517,-0.319,704.895,106.689,268.738
-0.989,-0.471,-0.347,666.260,79.895,292.175
-0.953,-0.502,-0.384,624.695,48.218,319.397
-0.903,-0.545,-0.461,576.172,14.832,345.581
-0.895,-0.624,-0.506,524.048,-15.564,363.098
-0.832,-0.648,-0.608,477.539,-41.931,365.051
-0.780,-0.645,-0.646,435.120,-59.814,353.821
-0.735,-0.612,-0.615,398.926,-67.627,333.069
-0.685,-0.510,-0.550,370.728,-71.472,302.490
-0.629,-0.377,-0.450,349.182,-79.712,264.893
-0.543,-0.256,-0.325,328.003,-92.224,225.952
-0.337,-0.081,-0.197,296.021,-110.046,192.871
-0.081,0.149,-0.177,239.563,-129.395,175.171
0.156,0.400,-0.282,167.236,-141.296,175.110
0.273,0.599,-0.471,99.060,-138.306,184.387
0.363,0.813,-0.568,58.533,-109.131,187.378
0.574,1.054,-0.400,56.458,-51.941,175.537
0.963,1.238,-0.108,81.055,18.250,151.123
1.507,1.397,0.217,121.033,80.872,117.126
2.211,1.465,0.432,170.471,113.342,80.688
2.712,1.523,0.266,210.327,100.830,65.735
2.945,1.339,-0.009,213.562,53.162,87.097
2.703,0.909,-0.429,160.095,-1.892,145.691
2.238,0.444,-0.923,77.209,-41.809,201.233
1.863,0.023,-1.180,34.485,-54.260,215.881
1.557,-0.350,-1.198,34.912,-40.161,197.449
1.429,-0.589,-1.074,48.157,-7.263,158.875
1.431,-0.705,-0.917,56.091,30.457,108.643
1.444,-0.656,-0.833,45.410,58.899,52.063
1.410,-0.439,-0.759,13.489,69.519,-7.629
1.388,-0.170,-0.715,-39.063,65.857,-65.430
1.385,0.106,-0.689,-105.408,50.781,-112.549
1.388,0.383,-0.752,-176.819,24.353,-141.479
1.327,0.605,-0.859,-241.089,-5.981,-150.879
1.208,0.717,-0.950,-287.415,-31.189,-145.264
1.117,0.741,-0.983,-314.026,-43.091,-133.240
1.097,0.682,-1.022,-323.181,-41.443,-114.990
1.055,0.539,-0.988,-322.571,-33.813,-90.210
0.969,0.350,-0.905,-322.449,-22.522,-68.298
0.912,0.177,-0.753,-322.815,-11.353,-59.326
0.951,0.093,-0.618,-320.251,-4.761,-63.538
1.020,0.006,-0.462,-315.491,-8.301,-72.083
1.027,-0.064,-0.339,-323.303,-21.362,-76.843
1.016,-0.160,-0.314,-343.933,-44.128,-82.214
0.970,-0.279,-0.322,-364.868,-72.693,-88.135
0.896,-0.395,-0.287,-380.188,-105.591,-93.689
0.863,-0.450,-0.240,-394.653,-137.085,-103.760
0.867,-0.505,-0.203,-408.142,-160.828,-119.690
0.864,-0.562,-0.214,-416.443,-177.490,-135.376
0.862,-0.696,-0.191,-425.598,-192.017,-148.499
0.735,-0.697,-0.132,-436.829,-211.487,-161.682
0.596,-0.594,-0.264,-450.195,-216.919,-161.255
0.407,-0.401,-0.289,-446.472,-231.812,-161.743
0.190,-0.330,-0.231,-418.945,-232.422,-156.189
0.066,-0.304,-0.101,-385.925,-210.999,-144.653
0.045,-0.361,0.065,-360.901,-177.124,-132.263
0.111,-0.485,0.225,-343.811,-143.921,-122.498
0.203,-0.609,0.367,-335.266,-121.765,-111.877
0.280,-0.732,0.480,-336.670,-116.455,-96.985
0.344,-0.737,0.504,-346.863,-127.625,-82.397
0.229,-0.675,0.432,-361.145,-146.729,-65.002
-0.007,-0.596,0.397,-372.375,-160.645,-42.175
-0.222,-0.505,0.414,-369.995,-156.494,-25.330
-0.342,-0.483,0.486,-349.487,-131.104,-21.057
-0.326,-0.516,0.598,-315.491,-88.684,-28.076
-0.194,-0.578,0.750,-282.471,-39.673,-41.992
0.010,-0.637,0.854,-258.606,-2.502,-58.105
0.167,-0.618,0.946,-245.972,14.587,-67.871
0.270,-0.576,0.955,-237.671,13.000,-66.284
0.161,-0.503,0.959,-228.271,-0.671,-58.472
-0.062,-0.428,0.995,-212.463,-16.113,-53.467
-0.221,-0.363,1.093,-191.711,-20.630,-54.626
-0.204,-0.336,1.177,-172.913,-11.597,-55.786
-0.080,-0.350,1.190,-162.476,1.892,-52.734
0.037,-0.396,1.176,-159.058,3.601,-46.631
0.068,-0.455,1.156,-165.161,-6.287,-39.551
0.041,-0.388,1.126,-177.551,-19.958,-34.363
-0.070,-0.346,1.125,-181.152,-29.785,-27.527
-0.182,-0.387,1.165,-165.710,-31.921,-19.470
-0.157,-0.441,1.141,-144.775,-27.649,-18.555
-0.056,-0.461,1.094,-130.981,-20.508,-22.095
-0.087,-0.509,1.096,-122.620,-22.949,-28.503
0.083,-0.445,0.986,-126.892,-18.677,-36.316
0.084,-0.326,0.957,-135.010,-26.306,-35.706
-0.010,-0.240,0.956,-138.611,-38.513,-35.583
-0.109,-0.171,0.951,-141.174,-43.518,-34.119
-0.129,-0.139,0.867,-141.052,-45.044,-32.593
-0.118,-0.144,0.764,-140.991,-48.950,-33.142
-0.129,-0.111,0.642,-143.555,-50.049,-34.119
-0.226,-0.009,0.524,-144.165,-43.030,-36.011
-0.368,0.030,0.632,-132.263,-26.123,-36.743
-0.421,0.000,0.852,-111.755,-4.517,-38.879
-0.315,-0.015,0.968,-103.333,11.597,-38.635
-0.254,-0.019,0.922,-108.337,18.066,-31.311
-0.278,-0.046,0.900,-111.206,15.808,-22.644
-0.316,-0.032,0.945,-107.727,13.062,-20.691
-0.340,0.013,1.017,-104.492,18.738,-23.071
-0.336,0.089,1.129,-98.328,31.067,-28.259
-0.238,0.146,1.286,-86.365,43.701,-32.593
-0.128,0.197,1.412,-74.524,52.124,-32.104
-0.022,0.228,1.491,-63.965,55.420,-26.306
0.056,0.187,1.554,-51.941,52.734,-19.165
0.138,0.146,1.583,-42.725,44.373,-14.526
0.177,0.145,1.555,-40.649,33.630,-12.085
0.181,0.171,1.502,-36.499,22.400,-11.169
0.197,0.182,1.474,-26.672,11.780,-12.390
-0.739,-0.284,1.641,349.976,-111.450,111.877
-0.611,-0.336,1.562,398.376,-111.694,127.747
-0.446,-0.335,1.419,456.726,-122.864,137.024
-0.473,-0.277,1.106,520.691,-140.503,145.630
-0.676,-0.175,0.627,598.389,-148.071,154.236
-0.878,-0.100,0.172,690.186,-130.249,162.170
-1.045,-0.141,-0.160,779.541,-81.787,176.758
-1.147,-0.306,-0.328,842.102,-7.874,200.928
-1.143,-0.513,-0.405,857.056,75.806,230.652
-1.069,-0.692,-0.451,834.045,150.818,261.597
-0.985,-0.838,-0.450,799.377,200.745,287.537
-0.914,-0.921,-0.431,768.433,218.933,303.223
-0.844,-0.896,-0.397,736.450,212.219,313.477
-0.773,-0.824,-0.328,694.275,188.049,329.346
-0.694,-0.804,-0.313,641.174,152.588,349.487
-0.649,-0.765,-0.408,582.947,112.244,361.938
-0.578,-0.708,-0.559,534.363,73.486,363.403
-0.532,-0.596,-0.625,490.112,42.908,361.755
-0.548,-0.469,-0.709,432.678,21.790,362.244
-0.543,-0.276,-0.788,372.742,8.606,355.286
-0.462,-0.073,-0.784,326.843,2.869,338.745
-0.354,0.150,-0.704,293.030,5.920,321.106
-0.209,0.295,-0.593,272.339,18.250,302.307
-0.052,0.348,-0.431,271.057,37.537,272.095
0.256,0.443,-0.240,284.668,58.411,222.961
0.737,0.689,-0.077,292.236,71.350,164.612
1.388,1.085,0.008,265.442,59.509,124.756
1.754,1.487,-0.062,181.335,35.156,126.221
1.886,1.887,-0.433,84.167,25.940,150.940
2.049,2.089,-0.750,52.307,42.603,165.649
2.382,2.003,-0.900,88.806,71.716,171.143
2.648,1.386,-0.826,139.160,94.604,177.979
2.622,0.523,-0.620,163.086,82.642,185.181
2.351,-0.283,-0.443,135.864,36.438,188.416
1.921,-0.775,-0.473,57.129,-5.615,183.044
1.548,-0.877,-0.639,-23.560,-17.395,154.846
1.320,-0.817,-0.743,-52.063,-4.211,100.159
1.243,-0.671,-0.748,-37.964,18.555,31.311
1.216,-0.417,-0.738,-30.334,36.621,-32.837
1.192,-0.083,-0.776,-58.350,42.175,-82.458
1.198,0.247,-0.841,-111.755,30.640,-118.774
1.189,0.523,-0.909,-172.974,4.150,-138.000
1.103,0.718,-0.940,-233.887,-27.283,-139.832
1.020,0.818,-1.005,-280.640,-53.467,-131.165
1.001,0.874,-1.043,-300.476,-68.970,-117.310
0.936,0.789,-1.008,-293.335,-74.951,-94.360
0.872,0.601,-0.913,-271.912,-73.669,-71.472
0.820,0.373,-0.844,-248.535,-62.561,-53.223
0.797,0.171,-0.710,-230.530,-52.368,-42.358
0.823,-0.001,-0.567,-225.281,-48.401,-42.297
0.878,-0.084,-0.466,-233.337,-52.368,-48.889
0.887,-0.135,-0.428,-250.793,-67.566,-56.396
0.821,-0.165,-0.390,-270.081,-93.323,-63.354
0.757,-0.152,-0.381,-285.034,-119.080,-70.557
0.730,-0.184,-0.423,-292.053,-135.925,-76.599
0.746,-0.260,-0.449,-292.236,-144.592,-81.970
0.793,-0.384,-0.434,-292.542,-145.081,-89.600
0.884,-0.536,-0.372,-297.729,-144.897,-101.379
1.011,-0.683,-0.370,-310.486,-149.963,-114.868
1.036,-0.766,-0.408,-325.623,-165.955,-123.901
0.932,-0.769,-0.456,-330.688,-195.374,-124.756
0.762,-0.707,-0.453,-325.989,-222.412,-126.099
0.628,-0.655,-0.395,-320.679,-231.995,-132.019
0.594,-0.621,-0.312,-322.632,-220.398,-139.099
0.646,-0.559,-0.240,-329.041,-197.021,-145.569
0.680,-0.523,-0.187,-335.815,-175.659,-150.146
0.660,-0.603,-0.108,-339.966,-168.457,-146.423
0.529,-0.716,0.012,-345.337,-174.194,-132.446
0.376,-0.803,0.114,-353.455,-184.082,-115.967
0.197,-0.849,0.220,-363.220,-192.871,-104.187
0.076,-0.798,0.313,-373.718,-196.533,-96.680
0.059,-0.691,0.398,-388.062,-190.979,-90.881
0.134,-0.579,0.413,-400.330,-178.589,-83.618
0.188,-0.512,0.446,-401.978,-165.955,-72.083
0.199,-0.518,0.489,-393.677,-151.917,-56.396
0.141,-0.536,0.542,-379.150,-132.263,-46.082
0.088,-0.537,0.599,-351.135,-108.887,-48.706
-0.011,-0.521,0.702,-306.946,-84.167,-61.279
-0.072,-0.536,0.813,-256.042,-60.303,-77.576
-0.097,-0.501,0.903,-211.182,-39.429,-94.055
0.006,-0.442,0.941,-185.364,-23.865,-104.004
0.029,-0.388,0.943,-179.810,-17.456,-105.896
0.109,-0.349,0.935,-187.988,-11.719,-95.642
0.157,-0.264,0.924,-203.613,-19.836,-80.994
0.180,-0.216,0.849,-218.933,-33.264,-66.528
0.018,-0.200,0.886,-221.680,-38.025,-52.612
-0.083,-0.168,0.969,-208.862,-34.363,-48.645
-0.103,-0.139,1.045,-186.951,-28.015,-50.842
-0.077,-0.155,1.052,-161.072,-26.672,-50.537
-0.084,-0.126,1.002,-140.381,-31.250,-48.218
-0.113,-0.147,0.927,-128.479,-36.743,-42.725
-0.153,-0.165,0.846,-124.817,-38.452,-37.170
-0.195,-0.170,0.826,-129.517,-33.203,-34.790
-0.221,-0.095,0.855,-135.742,-23.437,-34.302
-0.180,-0.069,0.942,-135.986,-11.719,-31.860
-0.134,-0.070,1.005,-132.019,-4.761,-26.794
-0.132,-0.057,1.012,-126.953,-5.615,-21.362
-0.132,-0.118,0.959,-121.033,-12.207,-17.395
-0.116,-0.155,0.839,-117.737,-18.372,-17.151
-0.177,-0.131,0.699,-118.408,-19.287,-20.996
-0.290,-0.088,0.681,-111.938,-13.428,-26.855
-0.355,-0.083,0.742,-97.839,-0.916,-35.461
-0.348,-0.108,0.873,-83.740,16.907,-40.771
-0.273,-0.160,0.974,-75.256,31.006,-40.283
-0.237,-0.196,1.026,-73.547,36.316,-33.081
-0.224,-0.219,1.026,-76.660,32.776,-23.132
-0.205,-0.232,0.988,-82.214,27.588,-14.709
-0.220,-0.220,0.996,-87.097,26.611,-9.644
-0.197,-0.170,1.062,-87.891,31.860,-11.902
-0.135,-0.110,1.188,-83.557,42.358,-18.188
-0.025,-0.092,1.327,-70.618,50.781,-24.414
0.064,-0.086,1.442,-56.702,52.124,-30.457
0.156,-0.040,1.461,-47.424,46.448,-34.424
0.184,0.019,1.462,-41.565,36.316,-34.851
0.179,0.078,1.460,-37.598,26.855,-31.616
0.186,0.133,1.469,-35.156,21.423,-26.123
0.196,0.166,1.492,-32.715,18.616,-18.921
0.207,0.170,1.498,-28.931,15.076,-11.597
0.226,0.151,1.475,-24.353,10.193,-5.981
-1.230,-0.935,-0.391,835.205,196.533,197.937
-1.053,-0.969,-0.316,802.979,259.766,221.130
-0.866,-0.960,-0.259,763.672,287.842,243.164
-0.769,-0.958,-0.231,730.286,282.104,264.343
-0.781,-0.997,-0.226,693.237,253.418,283.203
-0.814,-1.017,-0.250,638.428,214.111,298.645
-0.839,-0.945,-0.291,572.205,172.729,307.678
-0.822,-0.843,-0.307,506.714,135.803,311.951
-0.765,-0.712,-0.273,448.303,104.675,313.416
-0.657,-0.611,-0.278,402.649,76.111,311.401
-0.600,-0.532,-0.321,371.643,47.913,303.772
-0.581,-0.465,-0.306,345.642,20.508,293.335
-0.575,-0.327,-0.282,319.580,-2.014,278.748
-0.535,-0.135,-0.236,291.931,-20.630,256.592
-0.418,0.045,-0.163,269.348,-33.264,230.164
-0.211,0.187,-0.155,258.606,-39.551,199.829
0.079,0.342,-0.209,248.352,-43.335,173.035
0.334,0.507,-0.288,213.928,-42.480,163.086
0.447,0.759,-0.452,150.208,-27.771,165.894
0.779,1.241,-0.526,104.248,15.991,150.208
1.414,1.777,-0.399,94.055,81.665,113.525
2.162,2.122,-0.196,109.192,135.681,87.891
2.590,2.082,-0.053,143.860,144.775,90.454
2.880,1.701,-0.005,194.702,94.910,106.506
3.074,1.183,-0.376,228.760,13.916,133.667
2.845,0.466,-0.906,199.219,-50.781,182.312
2.186,-0.307,-1.369,110.168,-88.806,216.187
1.554,-0.740,-1.542,25.330,-94.360,198.303
1.178,-0.830,-1.539,-19.104,-62.256,137.573
1.060,-0.742,-1.371,-35.095,-5.249,60.486
1.117,-0.495,-1.100,-47.119,59.143,-13.306
1.316,-0.130,-0.842,-68.542,105.042,-75.623
1.482,0.245,-0.706,-99.670,112.183,-117.432
1.585,0.518,-0.677,-127.319,78.735,-136.963
1.488,0.694,-0.708,-149.902,20.325,-132.874
1.198,0.709,-0.825,-177.612,-36.438,-114.136
1.014,0.635,-0.944,-204.529,-73.975,-95.337
0.913,0.544,-1.023,-222.534,-88.867,-82.092
0.883,0.408,-0.975,-228.516,-92.224,-76.599
0.887,0.292,-0.874,-229.492,-88.867,-74.890
0.934,0.222,-0.777,-230.347,-82.153,-72.571
0.944,0.141,-0.689,-235.413,-77.515,-65.369
0.918,0.042,-0.590,-244.934,-78.247,-56.213
0.896,-0.052,-0.488,-257.629,-82.214,-50.232
0.892,-0.186,-0.427,-269.897,-89.050,-51.270
0.873,-0.289,-0.389,-275.574,-104.492,-58.716
0.823,-0.386,-0.319,-278.687,-125.000,-72.937
0.867,-0.436,-0.292,-287.109,-141.724,-91.980
0.879,-0.478,-0.287,-303.833,-154.907,-104.370
0.868,-0.552,-0.342,-320.129,-167.664,-118.958
0.963,-0.620,-0.364,-323.608,-180.786,-142.944
1.029,-0.656,-0.373,-322.754,-189.026,-158.569
0.940,-0.663,-0.361,-324.646,-202.820,-165.161
0.749,-0.651,-0.307,-325.378,-218.201,-167.419
0.595,-0.642,-0.238,-324.036,-227.112,-171.997
0.526,-0.674,-0.212,-322.754,-225.220,-176.575
0.513,-0.658,-0.209,-325.439,-215.454,-173.401
0.528,-0.663,-0.202,-330.811,-202.881,-163.635
0.544,-0.726,-0.143,-333.679,-194.397,-152.893
0.533,-0.952,-0.060,-338.562,-193.298,-144.348
0.449,-1.016,-0.052,-356.384,-204.468,-136.841
0.235,-0.841,-0.069,-383.606,-224.426,-127.136
-0.033,-0.660,-0.027,-401.428,-237.244,-115.234
-0.245,-0.548,0.092,-400.024,-234.375,-101.929
-0.397,-0.527,0.306,-390.137,-213.257,-93.750
-0.352,-0.478,0.471,-381.287,-177.734,-89.355
-0.174,-0.412,0.489,-373.779,-137.756,-84.045
-0.030,-0.457,0.468,-359.009,-101.990,-73.486
0.038,-0.617,0.507,-330.017,-72.998,-62.317
0.036,-0.758,0.599,-293.518,-50.537,-62.500
-0.009,-0.744,0.645,-261.658,-35.217,-75.134
-0.086,-0.704,0.749,-235.229,-24.231,-91.003
-0.185,-0.600,0.843,-215.027,-14.526,-109.375
-0.201,-0.462,0.942,-199.890,-6.592,-124.817
-0.154,-0.378,1.015,-187.744,-3.601,-128.296
-0.051,-0.320,1.019,-181.274,-6.348,-120.728
0.044,-0.298,0.953,-186.584,-7.812,-101.685
0.064,-0.272,0.858,-198.486,-3.296,-79.590
-0.004,-0.273,0.889,-200.806,3.052,-61.707
-0.069,-0.278,0.991,-188.354,6.348,-56.274
-0.086,-0.277,1.097,-169.739,8.362,-57.922
-0.081,-0.274,1.120,-151.733,8.423,-61.218
-0.045,-0.257,1.101,-137.024,2.014,-62.622
-0.045,-0.280,1.098,-128.845,-10.742,-66.040
-0.031,-0.239,1.016,-130.615,-16.541,-65.308
-0.035,-0.127,0.912,-134.277,-26.489,-61.584
-0.082,-0.035,0.802,-131.348,-32.288,-52.734
-0.127,-0.098,0.760,-120.056,-22.339,-40.833
-0.161,-0.168,0.873,-107.544,-8.667,-35.461
-0.092,-0.142,0.958,-109.131,-0.183,-35.095
-0.028,-0.106,0.895,-121.582,2.136,-29.724
-0.004,-0.157,0.810,-128.845,-3.723,-19.348
-0.024,-0.265,0.811,-136.108,-12.817,-12.939
-0.070,-0.433,0.845,-153.198,-15.808,-14.709
-0.097,-0.395,0.813,-174.072,-15.320,-27.283
-0.118,-0.232,0.685,-180.359,-13.428,-42.603
-0.303,-0.214,0.665,-152.100,-7.874,-52.368
-0.450,-0.198,0.800,-105.591,-4.211,-67.444
-0.480,-0.070,0.865,-78.918,-1.953,-84.351
-0.530,0.165,0.793,-75.012,2.197,-89.050
-0.653,0.355,0.806,-70.129,6.531,-80.322
-0.778,0.426,0.965,-58.960,17.700,-63.660
-0.779,0.425,1.183,-51.453,39.124,-42.358
-0.567,0.351,1.333,-54.565,65.491,-19.531
-0.341,0.208,1.433,-59.021,83.984,-1.099
-0.102,0.107,1.509,-58.289,88.318,8.850
0.122,0.068,1.555,-56.396,86.975,8.179
0.303,0.075,1.539,-48.523,79.834,1.465
0.404,0.096,1.512,-34.119,64.575,-8.484
0.415,0.143,1.508,-19.226,44.434,-19.287
0.408,0.188,1.457,-8.240,24.475,-26.489
0.355,0.218,1.371,-0.793,7.202,-27.771
0.266,0.240,1.278,4.639,-4.700,-24.963
0.198,0.216,1.217,11.353,-9.338,-21.118
0.153,0.181,1.188,17.578,-10.681,-17.456
0.115,0.163,1.148,18.311,-11.597,-13.123
0.083,0.175,1.095,15.564,-11.902,-6.958
0.119,0.129,1.041,13.733,-11.536,-0.305
0.155,0.100,0.971,7.935,-10.498,4.944
-1.651,-0.725,-0.858,904.968,120.667,215.820
-1.655,-0.757,-0.877,867.371,200.012,241.028
-1.468,-0.738,-0.812,814.880,255.920,262.451
-1.258,-0.661,-0.661,757.996,273.926,281.616
-1.082,-0.543,-0.505,699.951,255.249,296.814
-0.972,-0.445,-0.372,645.447,210.876,312.256
-0.918,-0.404,-0.288,598.877,154.785,329.102
-0.883,-0.365,-0.255,556.885,100.464,343.506
-0.880,-0.323,-0.271,515.564,49.988,350.830
-0.901,-0.271,-0.350,471.375,7.446,352.356
-0.995,-0.230,-0.405,424.622,-25.452,346.802
-1.056,-0.155,-0.402,379.761,-47.668,331.421
-0.928,-0.022,-0.392,343.140,-50.232,299.500
-0.706,0.050,-0.302,319.458,-46.692,253.784
-0.428,0.107,-0.225,301.758,-42.053,200.378
-0.044,0.272,-0.209,278.931,-32.349,142.883
0.577,0.502,-0.051,234.070,-16.907,93.872
1.380,1.130,0.083,164.551,17.212,55.664
2.328,1.937,0.333,117.859,51.636,27.710
3.292,2.515,0.455,118.652,61.768,28.198
3.980,2.595,0.201,164.978,32.104,76.111
4.000,1.994,-0.319,217.773,-29.358,157.227
3.669,0.982,-0.832,249.634,-89.355,236.389
3.208,-0.044,-1.374,251.892,-119.751,278.564
2.662,-0.893,-1.799,215.698,-122.559,275.085
2.002,-1.433,-1.934,139.160,-113.708,234.131
1.450,-1.465,-1.889,49.133,-81.482,161.682
1.118,-1.118,-1.627,-20.935,-22.400,65.552
1.073,-0.605,-1.219,-67.139,41.809,-34.180
1.238,-0.057,-0.965,-110.840,95.276,-113.281
1.419,0.503,-0.812,-150.146,117.554,-157.837
1.463,0.889,-0.743,-182.922,104.675,-168.213
1.376,1.036,-0.748,-206.543,72.021,-153.442
1.206,1.007,-0.796,-219.238,34.485,-126.099
1.038,0.886,-0.860,-232.361,3.662,-97.534
0.916,0.687,-0.932,-250.366,-15.259,-73.853
0.775,0.421,-0.913,-272.034,-26.672,-56.396
0.694,0.218,-0.846,-297.119,-34.851,-51.392
0.682,0.057,-0.712,-319.580,-44.617,-54.016
0.697,-0.037,-0.580,-340.881,-56.213,-55.420
0.690,-0.056,-0.511,-360.962,-69.519,-51.086
0.741,-0.053,-0.501,-373.718,-82.703,-47.852
0.872,-0.069,-0.591,-372.314,-94.604,-47.546
0.948,-0.192,-0.668,-358.093,-104.980,-47.363
0.976,-0.441,-0.711,-339.966,-111.206,-52.856
0.978,-0.649,-0.708,-329.407,-116.272,-66.406
0.875,-0.838,-0.681,-339.600,-125.000,-81.299
0.798,-0.976,-0.533,-369.934,-144.653,-110.840
0.647,-0.972,-0.345,-413.269,-162.781,-137.634
0.500,-0.772,-0.235,-457.825,-175.293,-163.269
0.463,-0.533,-0.205,-476.257,-181.091,-183.533
0.533,-0.369,-0.194,-461.731,-180.664,-187.866
0.693,-0.371,-0.190,-427.551,-178.101,-172.363
0.751,-0.483,-0.138,-398.499,-173.462,-143.250
0.702,-0.697,-0.118,-384.521,-171.143,-113.953
0.541,-0.925,-0.104,-374.573,-178.101,-94.604
0.377,-1.088,-0.001,-366.516,-197.815,-92.651
0.251,-1.045,0.060,-377.991,-218.445,-104.065
0.099,-0.818,0.079,-407.593,-227.783,-110.657
-0.063,-0.591,0.148,-431.213,-223.206,-107.422
-0.141,-0.385,0.267,-434.998,-207.336,-101.501
-0.132,-0.331,0.409,-420.471,-187.317,-94.177
-0.065,-0.296,0.470,-399.475,-165.161,-83.191
0.025,-0.283,0.446,-383.057,-138.855,-70.313
-0.023,-0.365,0.477,-365.784,-110.046,-57.983
-0.059,-0.480,0.563,-332.947,-84.229,-55.603
-0.095,-0.519,0.643,-294.373,-62.622,-65.979
-0.130,-0.500,0.719,-264.221,-41.199,-82.886
-0.100,-0.378,0.789,-242.432,-18.250,-102.478
-0.028,-0.244,0.843,-221.252,-1.038,-117.737
0.042,-0.158,0.919,-195.496,4.028,-121.277
0.134,-0.132,0.980,-172.119,-4.272,-113.647
0.130,-0.145,1.015,-165.161,-20.813,-93.933
-0.006,-0.081,0.979,-176.392,-33.630,-69.519
-0.174,-0.035,0.934,-183.350,-35.645,-48.523
-0.310,-0.088,0.957,-167.786,-29.846,-34.363
-0.317,-0.180,1.006,-136.658,-24.353,-28.870
-0.282,-0.231,0.986,-110.168,-25.208,-31.799
-0.235,-0.260,0.920,-96.252,-25.452,-35.217
-0.194,-0.312,0.848,-91.125,-25.635,-33.203
-0.177,-0.281,0.762,-93.994,-30.396,-32.898
-0.259,-0.207,0.705,-103.943,-32.349,-32.837
-0.337,-0.196,0.719,-106.262,-30.579,-29.846
-0.388,-0.195,0.771,-102.295,-25.513,-28.687
-0.419,-0.196,0.787,-101.746,-17.395,-28.015
-0.441,-0.219,0.769,-102.966,-9.094,-26.794
-0.390,-0.289,0.738,-103.027,-4.028,-26.367
-0.289,-0.420,0.682,-108.459,-3.357,-30.396
-0.279,-0.482,0.637,-124.451,-7.324,-40.833
-0.389,-0.329,0.578,-145.752,-15.015,-55.298
-0.377,-0.207,0.409,-153.015,-15.808,-59.143
-0.547,-0.338,0.527,-128.479,2.197,-48.096
-0.617,-0.530,0.913,-95.825,28.931,-46.875
-0.379,-0.520,1.149,-96.863,50.476,-62.805
-0.116,-0.264,1.214,-123.657,63.965,-78.613
-0.061,0.009,1.323,-134.155,63.660,-87.158
-0.095,0.216,1.529,-117.676,50.659,-93.323
-0.101,0.361,1.681,-96.191,36.194,-93.506
-0.114,0.507,1.667,-82.153,24.841,-83.069
-0.182,0.458,1.601,-63.110,13.123,-62.683
-0.251,0.321,1.603,-38.635,5.554,-41.992
-0.238,0.171,1.593,-25.269,4.211,-27.161
-0.160,0.106,1.549,-25.818,7.935,-18.066
-0.093,0.072,1.497,-26.855,10.132,-11.597
-0.050,0.044,1.456,-22.522,8.301,-6.653
0.006,0.009,1.383,-14.771,4.333,-4.822
0.073,-0.007,1.285,-5.981,-0.610,-7.751
0.091,0.019,1.194,2.075,-6.042,-13.550
0.102,0.046,1.118,9.277,-11.780,-18.433
0.086,0.097,1.034,11.597,-14.099,-20.630
0.046,0.141,0.979,12.024,-12.207,-20.020
0.025,0.166,0.982,13.550,-8.972,-17.822
0.037,0.172,0.985,12.024,-5.249,-13.184
0.071,0.170,0.973,7.629,-2.563,-6.958
0.080,0.175,0.963,2.014,-1.221,-2.625
0.065,0.185,0.977,-0.977,-0.244,0.549
0.072,0.202,0.999,-1.038,0.977,1.892
0.085,0.213,0.996,2.075,1.099,2.930
0.110,0.173,0.960,8.240,-1.648,4.272
-0.627,-0.323,2.003,279.114,-101.807,133.545
-0.448,-0.419,1.993,313.904,-110.046,145.081
-0.283,-0.415,1.921,343.384,-129.822,154.297
-0.181,-0.326,1.665,376.587,-154.785,160.461
-0.236,-0.196,1.325,434.875,-177.429,165.161
-0.431,-0.046,0.912,520.752,-184.937,165.344
-0.735,0.049,0.432,623.535,-164.490,162.231
-1.005,0.018,-0.012,735.413,-116.028,162.659
-1.200,-0.145,-0.290,835.632,-40.222,171.082
-1.318,-0.382,-0.434,895.752,52.063,187.988
-1.317,-0.624,-0.433,902.405,139.343,211.792
-1.222,-0.770,-0.352,860.413,205.566,236.450
-1.028,-0.810,-0.289,794.373,239.746,257.935
-0.848,-0.740,-0.232,730.774,238.831,272.034
-0.801,-0.607,-0.225,672.363,213.562,280.884
-0.890,-0.464,-0.248,616.821,174.194,293.762
-1.008,-0.380,-0.275,565.430,130.005,316.467
-1.076,-0.323,-0.320,513.306,91.736,342.407
-1.057,-0.295,-0.405,465.454,65.918,363.831
-0.936,-0.276,-0.476,430.115,50.903,373.413
-0.789,-0.259,-0.505,403.137,42.358,372.681
-0.719,-0.215,-0.453,379.028,36.316,361.694
-0.643,-0.119,-0.342,362.732,31.555,338.013
-0.547,-0.038,-0.209,354.919,28.137,302.917
-0.380,0.047,-0.105,350.464,18.494,256.836
-0.082,0.209,-0.036,333.557,1.587,208.923
0.338,0.537,-0.115,284.851,-16.968,176.025
0.686,0.974,-0.243,206.787,-33.508,169.250
0.834,1.472,-0.340,127.136,-32.410,182.556
1.046,1.932,-0.361,92.163,2.502,194.580
1.508,2.234,-0.300,123.169,65.491,193.848
2.191,2.218,-0.260,200.562,126.465,184.265
2.684,1.748,-0.289,288.940,150.574,168.457
3.196,1.408,-0.761,357.239,126.709,146.729
3.461,0.925,-1.080,370.422,65.979,154.236
3.009,0.176,-1.635,252.075,-2.136,210.083
2.340,-0.602,-2.005,73.059,-49.255,238.098
1.687,-1.031,-1.932,-50.171,-65.674,205.688
1.205,-1.160,-1.548,-115.906,-41.565,123.901
0.996,-1.018,-1.103,-150.085,11.169,16.724
1.067,-0.669,-0.736,-179.749,69.763,-90.454
1.284,-0.122,-0.564,-218.323,103.210,-171.814
1.399,0.485,-0.670,-260.010,89.844,-215.149
1.303,0.857,-0.842,-297.546,46.692,-219.238
1.136,1.007,-0.989,-326.660,4.211,-195.129
0.992,0.930,-1.067,-341.370,-28.748,-157.593
0.830,0.697,-1.037,-346.924,-50.049,-117.798
0.719,0.384,-0.895,-350.647,-57.861,-88.074
0.794,0.111,-0.740,-353.271,-66.162,-76.050
0.925,-0.101,-0.652,-361.877,-83.679,-72.083
0.981,-0.329,-0.605,-383.728,-105.774,-70.068
1.012,-0.517,-0.605,-414.490,-131.348,-79.773
1.004,-0.662,-0.627,-442.932,-159.363,-100.525
0.876,-0.701,-0.604,-469.666,-185.364,-122.192
0.729,-0.687,-0.566,-494.995,-204.834,-139.526
0.658,-0.575,-0.438,-512.451,-215.149,-151.917
0.714,-0.453,-0.367,-520.813,-214.050,-156.738
0.762,-0.408,-0.298,-514.893,-209.167,-150.085
0.834,-0.370,-0.198,-493.774,-207.886,-137.024
0.910,-0.506,-0.125,-470.032,-198.120,-113.708
0.991,-0.726,-0.019,-453.796,-201.721,-102.966
1.045,-0.858,-0.034,-451.660,-214.844,-104.126
0.899,-0.756,-0.109,-465.820,-235.413,-102.478
0.461,-0.549,-0.092,-479.736,-259.766,-94.727
0.012,-0.354,0.044,-476.135,-265.564,-86.487
-0.257,-0.236,0.207,-451.965,-239.441,-79.590
-0.329,-0.250,0.398,-411.926,-190.918,-69.763
-0.202,-0.345,0.519,-367.798,-137.817,-60.730
0.021,-0.519,0.626,-333.618,-89.600,-53.955
0.329,-0.655,0.707,-319.214,-54.199,-50.415
0.555,-0.655,0.703,-322.693,-32.166,-49.927
0.547,-0.550,0.644,-324.036,-28.015,-49.377
0.256,-0.342,0.677,-296.997,-42.542,-53.162
-0.055,-0.155,0.826,-237.366,-61.035,-66.345
-0.243,-0.134,1.050,-168.274,-63.721,-82.764
-0.260,-0.191,1.170,-119.873,-48.218,-92.041
-0.080,-0.261,1.224,-104.614,-30.884,-86.121
0.080,-0.254,1.152,-121.399,-26.245,-68.604
0.187,-0.280,1.010,-148.376,-34.241,-41.260
0.181,-0.370,0.939,-166.748,-42.358,-10.254
0.133,-0.452,0.931,-175.232,-46.143,9.155
0.110,-0.428,0.927,-175.232,-48.645,10.803
0.060,-0.377,0.934,-162.476,-53.162,-0.244
-0.054,-0.315,0.938,-136.414,-57.678,-13.855
-0.141,-0.327,0.967,-104.065,-59.631,-26.733
-0.137,-0.380,0.968,-80.933,-57.800,-37.781
-0.122,-0.382,0.906,-77.820,-54.993,-42.542
-0.098,-0.354,0.858,-86.121,-53.955,-39.551
-0.089,-0.337,0.831,-95.703,-53.284,-31.677
-0.112,-0.288,0.825,-101.624,-49.988,-22.400
-0.124,-0.214,0.881,-100.708,-48.218,-15.686
-0.137,-0.219,0.955,-99.670,-46.814,-11.047
-0.146,-0.233,0.876,-101.563,-46.753,-6.042
-0.188,-0.255,0.710,-100.647,-50.354,-4.211
-0.300,-0.258,0.557,-97.229,-52.429,-8.972
-0.401,-0.234,0.499,-90.393,-46.875,-19.104
-0.397,-0.203,0.534,-82.031,-34.363,-30.762
-0.449,-0.202,0.681,-80.139,-21.179,-38.330
-0.439,-0.209,0.763,-81.787,-10.864,-39.307
-0.463,-0.207,0.765,-84.534,-3.784,-31.494
-0.515,-0.209,0.740,-87.952,-5.554,-26.733
-0.573,-0.240,0.693,-88.989,-7.385,-25.269
-0.609,-0.180,0.652,-87.891,-5.127,-27.161
-0.691,-0.110,0.660,-86.548,0.122,-32.776
-0.806,-0.044,0.717,-80.688,6.042,-38.147
-0.829,-0.045,0.708,-70.740,13.428,-41.443
-0.840,-0.128,0.731,-60.608,26.489,-38.940
-0.841,-0.238,0.741,-52.368,40.161,-33.875
-0.798,-0.369,0.698,-48.462,47.974,-31.006
-0.675,-0.320,0.592,-48.828,49.927,-29.724
-0.581,-0.296,0.542,-49.011,55.786,-24.902
-0.446,-0.284,0.699,-43.762,70.190,-21.301
-0.226,-0.170,1.043,-49.133,91.492,-24.658
0.086,0.043,1.421,-74.341,119.873,-29.541
0.461,0.277,1.757,-93.079,138.733,-31.433
0.748,0.465,2.072,-93.140,136.047,-29.907
0.973,0.567,2.256,-81.055,114.807,-27.222
1.099,0.587,2.234,-58.716,77.515,-24.963
1.039,0.567,2.060,-31.555,30.029,-26.428
0.438,0.479,1.762,23.193,-43.518,-42.297
0.232,0.436,1.625,42.480,-57.251,-49.072
0.075,0.345,1.487,52.612,-62.988,-45.898
-0.031,0.262,1.324,51.758,-65.857,-35.583
-0.115,0.211,1.187,42.969,-64.819,-23.254
-0.155,0.153,1.067,34.058,-58.289,-9.705
-0.171,0.084,0.984,29.236,-49.072,2.808
-0.117,-0.012,0.914,23.743,-39.063,12.817
-0.060,-0.069,0.858,13.306,-27.710,18.005
-0.037,-0.075,0.806,2.197,-18.250,18.188
-0.068,-0.059,0.805,-1.282,-11.902,14.343
-0.083,-0.039,0.833,3.845,-7.874,8.789
-0.047,-0.051,0.798,9.949,-5.066,4.333
-0.016,-0.103,0.707,11.108,-0.977,0.916
-0.033,-0.077,0.690,6.714,5.859,-4.822
-0.043,-0.008,0.747,1.282,13.916,-12.817
-0.026,0.061,0.825,-0.244,20.264,-17.639
-0.009,0.102,0.899,0.671,22.583,-16.663
-0.007,0.127,0.919,1.465,20.691,-11.719
0.005,0.136,0.932,3.052,15.259,-5.310
0.075,0.056,0.896,1.709,9.094,1.953
0.085,0.057,0.784,-11.108,7.019,5.920
0.013,0.114,0.798,-24.841,12.085,4.578
-0.004,0.168,0.956,-24.292,20.813,-1.648
0.031,0.200,1.061,-18.188,28.625,-6.470
0.046,0.215,1.085,-12.939,30.151,-7.629
0.051,0.233,1.074,-6.714,26.733,-6.836
0.047,0.242,1.093,0.183,23.621,-5.737
0.049,0.244,1.122,6.042,21.790,-3.784
0.067,0.243,1.140,8.850,20.020,0.488
0.095,0.216,1.147,9.094,16.357,7.019
0.157,0.161,1.108,6.226,10.071,14.160
0.142,0.129,1.050,-1.404,4.822,19.348
0.064,0.126,1.031,-8.118,3.601,20.142
0.054,0.128,1.074,-7.507,7.629,15.198
0.092,0.133,1.125,-2.319,12.451,9.033
0.108,0.135,1.134,3.906,10.986,5.798
0.085,0.133,1.113,10.010,3.845,5.920
0.066,0.117,1.068,13.428,-2.686,8.484
0.090,0.086,1.007,13.489,-5.066,12.207
0.101,0.048,0.967,9.644,-4.822,15.930
0.078,0.027,0.963,4.395,-2.625,17.212
0.070,0.027,0.995,1.221,0.854,14.587
0.088,0.038,1.030,0.610,4.883,10.803
0.098,0.058,1.042,1.099,6.714,8.057
0.089,0.069,1.047,4.333,4.944,7.019
0.083,0.074,1.047,8.423,1.465,6.531
0.090,0.079,1.020,10.376,-0.854,7.019
0.113,0.045,0.990,10.681,-3.052,7.996
0.119,0.007,0.965,6.958,-4.089,8.667
0.093,0.010,0.949,0.000,-3.235,7.690
0.063,0.036,0.971,-3.113,-1.465,4.883
0.065,0.047,1.001,-1.404,0.549,1.831
0.072,0.054,1.011,0.793,1.343,-0.427
0.070,0.061,0.997,1.709,0.061,-1.465
0.065,0.067,0.988,2.014,-1.770,-1.831
0.065,0.077,0.980,0.610,-2.075,-1.038
0.067,0.087,0.977,-1.770,-0.244,0.000
0.070,0.095,1.003,-2.197,2.502,0.061
0.088,0.098,1.027,-1.038,4.272,-0.732
0.091,0.108,1.021,0.732,4.333,-1.404
0.077,0.104,1.017,3.601,2.808,-2.136
0.064,0.107,1.024,6.470,1.709,-3.418
0.070,0.103,1.027,8.179,1.587,-4.089
0.074,0.095,1.029,8.972,1.343,-4.089
0.063,0.098,1.037,9.155,0.427,-3.845
0.050,0.105,1.056,9.155,0.000,-3.113
0.048,0.130,1.101,10.620,0.061,-1.770
0.039,0.175,1.177,14.038,-0.183,0.488
0.051,0.192,1.244,23.376,-1.526,3.540
0.064,0.219,1.313,39.368,-5.066,6.958
0.065,0.255,1.402,60.425,-11.902,11.902
0.089,0.261,1.476,87.036,-20.752,21.484
0.084,0.221,1.548,114.746,-31.921,36.682
0.074,0.156,1.599,140.259,-45.166,56.396
0.050,0.066,1.638,164.673,-61.707,76.477
-0.011,0.020,1.671,186.279,-79.407,93.689
-0.037,0.002,1.668,210.815,-92.896,105.835
-0.088,-0.055,1.634,245.667,-101.379,114.380
-0.170,-0.180,1.605,294.006,-110.779,120.239
-0.235,-0.320,1.546,350.342,-120.056,122.131
-0.273,-0.411,1.373,409.119,-128.052,119.507
-0.309,-0.432,1.098,469.666,-133.362,109.924
-0.418,-0.390,0.768,536.804,-132.629,97.351
-0.532,-0.366,0.410,614.746,-119.934,88.379
-0.736,-0.437,0.115,696.777,-94.849,87.708
-0.887,-0.566,-0.117,771.118,-57.495,97.412
-1.028,-0.716,-0.294,823.303,-5.676,115.234
-1.124,-0.821,-0.440,845.581,56.213,138.977
-1.237,-0.896,-0.508,840.698,121.338,166.260
-1.227,-0.917,-0.557,818.909,181.824,193.787
-1.076,-0.929,-0.608,788.635,226.318,217.590
-0.922,-0.903,-0.600,755.249,246.948,238.892
-0.823,-0.847,-0.588,719.299,247.314,256.348
-0.812,-0.815,-0.553,680.054,229.004,273.376
-0.823,-0.750,-0.472,635.559,198.792,293.518
-0.795,-0.697,-0.454,587.097,167.725,313.232
-0.770,-0.618,-0.471,541.931,135.986,327.881
-0.800,-0.637,-0.484,504.822,107.422,334.229
-0.886,-0.626,-0.442,475.647,82.581,333.923
-0.968,-0.585,-0.346,444.031,68.909,329.224
-0.986,-0.528,-0.201,411.194,66.711,316.711
-0.970,-0.418,-0.015,384.949,62.561,293.640
-0.901,-0.241,0.146,368.286,46.753,261.169
-0.721,-0.005,0.271,354.614,19.531,222.961
-0.444,0.262,0.310,330.322,-14.832,184.998
-0.101,0.569,0.148,291.321,-39.429,154.785
0.262,0.941,-0.107,252.869,-40.405,130.920
0.617,1.456,-0.276,219.421,-27.588,112.122
1.122,1.952,-0.424,176.758,-2.380,95.886
1.658,2.432,-0.383,143.066,34.119,87.158
2.409,2.720,-0.275,147.644,62.805,84.167
3.153,2.560,-0.187,185.486,56.213,91.064
3.478,1.920,-0.245,221.375,4.089,115.479
3.387,1.119,-0.742,217.346,-72.144,158.569
2.776,0.063,-1.219,146.301,-136.353,213.257
2.103,-0.710,-1.569,29.419,-167.603,229.797
1.680,-1.019,-1.866,-61.951,-150.146,190.125
1.407,-1.049,-1.932,-89.905,-99.854,117.065
1.166,-0.621,-1.194,-84.351,11.780,-59.509
1.283,-0.124,-0.954,-128.845,46.326,-135.803
1.428,0.493,-0.913,-192.566,50.537,-183.899
1.431,1.000,-0.981,-248.657,26.245,-201.538
1.341,1.217,-1.030,-282.227,-7.141,-197.327
1.209,1.272,-1.091,-293.945,-35.522,-177.490
1.073,1.164,-1.140,-293.701,-53.650,-149.231
0.932,0.989,-1.158,-289.429,-60.120,-121.216
0.800,0.776,-1.085,-281.372,-60.791,-99.609
0.718,0.566,-0.971,-273.132,-59.448,-85.693
0.701,0.374,-0.813,-270.203,-55.786,-73.425
0.704,0.192,-0.667,-273.132,-53.406,-62.622
0.677,0.060,-0.506,-277.039,-55.176,-56.274
0.719,-0.053,-0.461,-278.381,-59.021,-57.312
0.779,-0.166,-0.467,-278.625,-64.880,-65.735
0.802,-0.304,-0.542,-278.564,-72.021,-78.003
0.745,-0.440,-0.596,-279.724,-78.491,-90.515
0.661,-0.493,-0.620,-287.109,-86.487,-104.980
0.606,-0.524,-0.610,-295.532,-96.008,-121.887
0.580,-0.570,-0.556,-299.561,-105.957,-135.803
0.516,-0.648,-0.469,-303.284,-118.042,-143.250
0.453,-0.564,-0.319,-310.486,-128.296,-149.292
0.359,-0.491,-0.355,-313.110,-122.437,-143.738
0.378,-0.407,-0.335,-298.950,-126.282,-152.039
0.422,-0.486,-0.267,-279.907,-122.742,-153.015
0.444,-0.667,-0.217,-273.010,-112.854,-140.625
0.487,-0.814,-0.224,-280.090,-108.521,-125.854
0.478,-0.921,-0.294,-290.161,-114.929,-111.389
0.327,-0.965,-0.319,-291.382,-132.690,-97.778
0.086,-1.000,-0.217,-284.790,-151.245,-88.196
-0.078,-0.973,-0.085,-278.564,-152.954,-86.548
-0.083,-0.938,0.027,-277.344,-135.071,-90.881
0.079,-0.882,0.107,-281.799,-113.342,-97.229
0.229,-0.815,0.197,-290.222,-101.563,-100.647
0.316,-0.791,0.281,-298.706,-101.685,-98.877
0.358,-0.808,0.356,-305.176,-111.328,-89.905
0.320,-0.871,0.395,-318.176,-125.854,-71.533
0.165,-0.927,0.400,-336.548,-142.090,-48.157
-0.052,-0.901,0.403,-348.145,-154.114,-31.982
-0.227,-0.816,0.434,-346.497,-157.227,-27.588
-0.309,-0.726,0.465,-340.637,-146.851,-30.029
-0.228,-0.633,0.496,-339.233,-121.887,-33.386
-0.083,-0.643,0.542,-337.646,-94.543,-32.715
0.040,-0.656,0.549,-336.243,-73.975,-31.616
0.107,-0.602,0.512,-333.496,-58.838,-33.447
0.084,-0.533,0.518,-316.895,-49.988,-34.546
-0.077,-0.609,0.621,-284.180,-44.128,-32.715
-0.189,-0.662,0.771,-247.681,-36.377,-36.987
-0.219,-0.583,0.843,-220.154,-29.114,-47.729
-0.102,-0.551,0.875,-203.491,-19.226,-59.937
-0.040,-0.479,0.896,-196.472,-10.010,-63.293
0.025,-0.421,0.907,-194.763,-13.794,-64.148
0.034,-0.353,0.865,-198.792,-21.240,-65.247
0.009,-0.263,0.845,-201.050,-26.733,-64.941
-0.020,-0.232,0.794,-200.256,-32.593,-64.575
-0.094,-0.152,0.702,-198.486,-36.011,-60.730
-0.223,-0.071,0.681,-191.223,-34.851,-54.260
-0.300,-0.076,0.726,-178.345,-29.297,-50.537
-0.272,-0.101,0.715,-169.189,-19.653,-49.500
-0.262,-0.093,0.608,-166.687,-11.108,-48.157
-0.277,-0.095,0.549,-163.208,-7.385,-46.265
-0.291,-0.124,0.540,-160.156,-5.615,-45.776
-0.318,-0.151,0.532,-163.147,-2.808,-46.326
-0.364,-0.098,0.507,-166.321,-0.549,-46.021
-0.388,-0.032,0.451,-160.583,4.944,-40.161
-0.477,-0.089,0.468,-141.663,19.775,-29.663
-0.546,-0.236,0.662,-115.540,38.696,-23.437
-0.482,-0.234,0.878,-105.896,57.251,-28.809
-0.370,-0.075,1.002,-116.211,75.073,-36.499
-0.288,0.079,1.108,-118.652,87.097,-39.001
-0.209,0.135,1.300,-103.088,91.736,-37.781
-0.120,0.157,1.521,-87.341,96.252,-34.668
-0.028,0.167,1.677,-79.712,101.196,-31.494
0.053,0.209,1.788,-72.205,100.098,-28.748
0.094,0.227,1.916,-58.289,92.651,-23.071
0.155,0.180,2.013,-40.833,82.397,-16.052
0.238,0.128,2.027,-26.672,68.970,-10.437
0.322,0.075,1.939,-17.456,51.575,-6.165
0.373,0.040,1.813,-11.169,33.264,-5.127
0.374,0.023,1.711,-3.235,17.334,-8.484
0.358,0.016,1.641,7.812,3.052,-13.672
0.355,0.009,1.553,16.968,-9.277,-18.738
0.340,0.014,1.406,20.752,-20.386,-21.240
0.274,0.022,1.259,22.400,-29.907,-21.362
0.206,0.028,1.143,25.696,-37.537,-20.935
0.150,0.048,1.062,28.564,-41.687,-20.203
0.104,0.070,0.987,29.053,-42.786,-17.090
0.097,0.075,0.898,28.137,-42.969,-11.658
0.093,0.055,0.808,26.306,-41.565,-5.493
0.091,0.022,0.728,23.865,-38.879,-1.831
0.074,0.014,0.688,19.531,-33.936,-2.197
0.061,0.045,0.681,14.221,-24.780,-5.615
0.055,0.099,0.702,12.085,-13.794,-9.827
0.054,0.131,0.765,13.794,-5.005,-12.207
0.075,0.145,0.814,15.747,1.160,-11.902
0.099,0.145,0.819,15.259,4.089,-9.094
0.098,0.154,0.825,12.939,3.357,-5.249
0.072,0.157,0.839,9.644,2.930,-0.549
0.081,0.139,0.872,7.202,4.272,4.761
0.130,0.112,0.903,3.113,7.080,9.216
0.146,0.077,0.906,-3.174,10.010,12.695
0.135,0.066,0.939,-8.423,12.268,13.062
0.132,0.087,1.003,-11.169,15.076,9.033
0.131,0.104,1.075,-7.141,17.151,4.761
0.125,0.101,1.118,1.160,15.015,2.319
0.117,0.088,1.113,8.972,9.338,2.258
0.125,0.062,1.078,13.489,3.174,4.211
0.117,0.029,1.031,12.573,-0.061,7.629
0.094,-0.003,1.015,7.629,0.305,10.437
0.099,-0.014,1.042,1.343,3.784,10.742
0.109,-0.002,1.072,-4.028,7.446,9.094
0.108,0.030,1.105,-5.676,7.690,6.592
0.097,0.053,1.124,-2.380,4.578,4.456
0.101,0.069,1.100,3.662,0.000,3.296
0.116,0.066,1.049,9.460,-3.540,4.150
0.132,0.031,0.998,12.146,-5.249,5.981
0.123,0.010,0.968,10.193,-4.883,6.165
0.113,0.021,0.967,6.592,-3.052,5.005
0.101,0.036,0.982,5.005,-1.343,3.784
-0.511,-0.549,1.657,298.279,-115.173,49.316
-0.569,-0.552,1.475,336.060,-121.765,41.626
-0.651,-0.525,1.306,383.423,-121.460,31.128
-0.748,-0.524,1.157,438.843,-114.014,20.447
-0.803,-0.509,0.982,500.549,-99.365,10.193
-0.877,-0.457,0.740,568.298,-79.895,4.883
-0.996,-0.375,0.478,639.038,-53.955,5.615
-1.102,-0.333,0.211,710.449,-19.165,14.038
-1.289,-0.376,-0.015,772.644,24.902,32.959
-1.498,-0.429,-0.155,817.444,76.660,59.570
-1.704,-0.505,-0.253,833.862,134.155,89.478
-1.792,-0.569,-0.299,819.763,194.031,120.544
-1.685,-0.594,-0.240,784.119,245.361,149.170
-1.464,-0.574,-0.116,739.624,275.330,173.767
-1.235,-0.508,0.013,689.575,276.611,194.763
-1.075,-0.438,0.102,639.893,253.174,213.135
-0.974,-0.376,0.155,597.961,217.224,225.037
-0.858,-0.294,0.169,562.561,176.636,229.492
-0.759,-0.162,0.198,532.288,136.658,226.807
-0.583,0.057,0.232,505.432,99.670,214.722
-0.293,0.323,0.295,475.098,65.308,201.111
0.119,0.537,0.282,435.364,31.616,191.895
0.552,0.659,0.130,394.592,0.061,178.650
0.895,0.775,-0.104,365.234,-27.466,154.419
1.240,0.987,-0.325,345.337,-44.861,120.911
1.682,1.235,-0.555,331.421,-40.833,85.510
2.209,1.579,-0.831,331.604,-21.606,55.542
2.732,1.972,-1.177,344.116,-4.700,50.537
3.025,1.997,-1.498,348.938,1.526,90.637
3.045,1.370,-1.876,330.872,-3.906,158.569
2.845,0.510,-2.303,293.884,-18.555,209.839
2.440,-0.490,-2.404,235.352,-50.171,224.548
1.959,-1.258,-2.075,132.996,-85.144,208.801
1.564,-1.589,-1.677,-3.174,-90.271,164.978
1.328,-1.438,-1.454,-121.948,-59.875,91.980
1.194,-1.034,-1.278,-185.852,-17.151,4.028
1.189,-0.455,-1.144,-204.712,19.653,-74.768
1.285,0.093,-1.127,-205.505,47.485,-122.131
1.328,0.491,-1.189,-203.613,63.538,-135.681
1.292,0.727,-1.246,-194.824,66.528,-129.028
1.197,0.835,-1.221,-181.763,58.533,-115.051
1.066,0.818,-1.147,-176.819,46.143,-97.595
0.931,0.694,-1.024,-190.735,32.593,-79.773
0.808,0.554,-0.895,-220.276,16.602,-65.125
0.740,0.377,-0.738,-252.625,-4.578,-55.847
0.678,0.219,-0.594,-283.813,-29.175,-49.500
0.590,0.080,-0.484,-312.561,-53.467,-44.983
0.499,-0.019,-0.437,-333.008,-73.975,-41.504
0.443,-0.105,-0.456,-340.271,-90.637,-39.490
0.416,-0.200,-0.493,-335.876,-102.051,-41.504
0.460,-0.290,-0.537,-325.928,-108.093,-49.011
0.552,-0.432,-0.614,-317.566,-110.596,-59.937
0.595,-0.599,-0.691,-318.726,-112.305,-69.763
0.576,-0.821,-0.692,-331.177,-119.263,-76.904
0.495,-0.845,-0.553,-354.980,-135.315,-87.646
0.346,-0.844,-0.505,-386.292,-145.752,-88.013
0.224,-0.750,-0.359,-407.532,-166.260,-99.243
0.202,-0.655,-0.262,-413.147,-173.462,-107.239
0.231,-0.600,-0.215,-412.292,-160.645,-104.309
0.302,-0.669,-0.161,-404.175,-144.897,-93.140
0.359,-0.723,-0.086,-395.142,-135.376,-82.092
0.427,-0.741,-0.055,-390.625,-133.240,-71.106
0.435,-0.821,-0.045,-387.756,-136.353,-55.115
0.320,-0.917,0.007,-384.338,-146.057,-37.170
0.082,-0.959,0.093,-386.719,-157.410,-28.076
-0.099,-0.882,0.179,-396.057,-161.926,-29.907
-0.165,-0.762,0.262,-405.029,-155.640,-35.828
-0.132,-0.613,0.314,-409.302,-144.287,-38.818
-0.041,-0.490,0.338,-410.889,-132.996,-32.898
-0.051,-0.436,0.368,-411.255,-123.230,-15.686
-0.127,-0.491,0.411,-408.203,-112.732,3.784
-0.165,-0.537,0.486,-397.156,-102.600,17.273
-0.160,-0.536,0.514,-380.859,-93.994,21.790
-0.208,-0.551,0.534,-359.863,-83.923,19.714
-0.277,-0.558,0.614,-330.139,-71.289,7.446
-0.285,-0.529,0.718,-296.326,-54.810,-17.029
-0.184,-0.481,0.769,-270.508,-37.109,-43.274
-0.088,-0.370,0.814,-257.263,-23.315,-64.819
-0.030,-0.236,0.823,-252.258,-16.785,-77.759
-0.063,-0.145,0.767,-247.131,-15.320,-77.881
-0.124,-0.104,0.731,-233.582,-15.686,-70.251
-0.135,-0.084,0.744,-217.651,-14.221,-63.477
-0.251,-0.196,0.785,-208.923,-10.864,-59.875
-0.112,-0.178,0.693,-212.280,3.235,-61.035
-0.091,-0.153,0.669,-218.384,7.141,-59.143
-0.192,-0.109,0.710,-216.187,3.662,-63.110
-0.343,-0.035,0.778,-205.933,-0.061,-68.970
-0.437,0.066,0.849,-190.430,0.793,-73.669
-0.417,0.136,0.869,-171.814,5.188,-73.975
-0.383,0.110,0.854,-153.931,14.282,-66.772
-0.478,0.128,0.957,-139.771,29.358,-55.847
-0.570,0.170,1.155,-127.808,45.837,-47.180
-0.575,0.196,1.365,-113.586,64.331,-37.842
-0.520,0.227,1.579,-95.703,81.543,-25.208
-0.395,0.164,1.712,-74.585,89.111,-9.094
-0.273,0.041,1.805,-52.673,87.524,7.263
-0.140,-0.115,1.856,-35.522,78.613,19.409
-0.011,-0.240,1.847,-26.672,65.491,27.161
0.060,-0.319,1.808,-23.499,51.453,32.532
0.106,-0.381,1.780,-20.264,39.490,33.447
0.154,-0.405,1.761,-14.893,29.053,28.198
0.213,-0.378,1.702,-9.766,18.188,18.982
0.266,-0.355,1.594,-4.944,6.714,8.057
0.291,-0.313,1.462,1.892,-4.272,-4.883
0.289,-0.246,1.358,11.292,-14.343,-20.081
0.285,-0.163,1.294,21.484,-21.545,-34.058
0.271,-0.092,1.226,28.748,-26.489,-41.931
0.263,-0.057,1.136,32.166,-31.006,-42.297
0.241,-0.035,1.028,30.273,-35.645,-37.964
0.195,-0.023,0.954,23.560,-38.147,-32.898
0.145,0.012,0.883,15.381,-37.354,-28.992
0.091,0.056,0.850,10.376,-33.875,-26.062
0.080,0.081,0.829,10.681,-29.236,-23.499
0.092,0.077,0.792,12.024,-23.254,-19.714
0.098,0.066,0.747,11.292,-17.395,-16.785
0.074,0.086,0.745,9.338,-12.085,-15.747
0.064,0.111,0.792,9.094,-7.141,-15.076
0.090,0.118,0.842,8.972,-3.418,-12.268
0.144,0.078,0.831,5.371,-1.953,-6.897
-0.530,-0.731,1.821,315.613,-70.984,57.251
-0.485,-0.841,1.686,352.600,-90.088,53.833
-0.505,-0.845,1.501,387.024,-110.596,43.396
-0.663,-0.784,1.311,428.528,-120.605,32.410
-0.865,-0.654,1.097,487.061,-113.403,23.071
-1.029,-0.477,0.841,567.932,-89.661,14.709
-1.099,-0.340,0.504,667.297,-50.415,11.353
-1.144,-0.291,0.143,774.841,2.686,20.508
-1.266,-0.429,-0.095,871.643,64.453,43.152
-1.442,-0.683,-0.217,930.115,135.681,73.120
-1.527,-0.892,-0.228,937.683,212.219,105.957
-1.466,-1.003,-0.135,899.597,277.710,137.451
-1.313,-0.952,-0.018,838.623,313.232,162.964
-1.103,-0.772,0.014,778.503,309.448,180.664
-0.953,-0.558,0.069,729.980,275.696,197.937
-0.870,-0.429,0.114,678.528,227.478,223.877
-0.784,-0.356,0.154,622.864,171.692,256.042
-0.663,-0.286,0.110,569.946,115.479,282.654
-0.485,-0.222,0.032,529.358,61.035,295.105
-0.361,-0.176,-0.036,496.460,15.320,296.936
-0.262,-0.080,-0.076,461.426,-15.198,289.734
-0.109,0.073,-0.111,423.584,-31.616,268.066
0.096,0.187,-0.163,394.592,-37.292,230.835
0.352,0.341,-0.272,378.906,-38.513,179.993
0.602,0.631,-0.235,355.591,-42.908,135.193
0.859,0.893,-0.279,301.697,-38.940,107.178
1.162,1.291,-0.453,250.244,-18.799,86.365
1.481,1.710,-0.580,223.694,9.033,72.815
1.883,2.020,-0.684,219.482,48.950,63.660
2.427,2.049,-0.828,245.667,88.135,50.720
2.882,1.802,-0.914,295.837,87.952,43.030
2.955,1.389,-1.016,328.369,36.804,65.918
2.626,0.717,-1.319,281.250,-28.931,127.441
2.008,-0.113,-1.572,152.527,-74.646,191.772
1.483,-0.647,-1.620,16.785,-87.097,206.238
1.129,-0.834,-1.497,-63.477,-67.444,162.781
0.972,-0.729,-1.226,-86.487,-30.457,86.609
0.945,-0.509,-0.996,-91.431,10.986,2.502
0.999,-0.175,-0.861,-106.995,46.326,-67.993
1.105,0.198,-0.793,-137.756,59.387,-114.197
1.161,0.531,-0.831,-183.044,48.218,-136.780
1.181,0.761,-0.937,-230.591,20.691,-140.686
1.116,0.845,-0.991,-272.278,-11.414,-127.991
1.020,0.853,-1.004,-305.054,-37.598,-110.474
0.953,0.828,-1.019,-319.397,-54.810,-96.191
0.843,0.731,-0.989,-313.782,-67.322,-83.435
0.751,0.561,-0.884,-297.180,-77.393,-74.951
0.754,0.367,-0.768,-281.921,-83.313,-72.449
0.833,0.176,-0.704,-277.527,-87.341,-72.021
0.838,-0.023,-0.705,-288.208,-94.666,-71.777
0.762,-0.182,-0.771,-307.678,-105.347,-75.073
0.658,-0.238,-0.812,-326.416,-114.319,-82.947
0.606,-0.242,-0.773,-340.393,-116.699,-94.666
0.589,-0.264,-0.662,-349.976,-111.572,-108.398
0.658,-0.275,-0.589,-353.455,-100.769,-121.948
0.739,-0.343,-0.544,-349.487,-90.759,-129.883
0.789,-0.451,-0.481,-345.947,-90.149,-133.057
0.814,-0.535,-0.418,-350.525,-103.516,-131.897
0.820,-0.635,-0.414,-363.098,-126.465,-130.493
0.670,-0.646,-0.440,-378.723,-145.203,-121.582
0.413,-0.598,-0.477,-389.709,-162.476,-114.258
0.216,-0.569,-0.309,-383.911,-176.941,-123.596
0.207,-0.559,-0.167,-374.329,-166.443,-128.967
0.213,-0.631,-0.045,-369.202,-148.682,-125.183
0.293,-0.745,0.008,-369.873,-138.489,-116.699
0.392,-0.785,0.005,-377.441,-139.893,-105.530
0.495,-0.823,-0.044,-390.991,-150.574,-85.571
0.439,-0.914,-0.047,-413.330,-164.185,-56.213
0.259,-0.905,0.002,-440.430,-177.124,-30.640
0.044,-0.803,0.087,-459.595,-183.533,-18.921
-0.078,-0.587,0.209,-460.937,-184.509,-21.179
-0.161,-0.430,0.347,-449.707,-176.819,-26.978
-0.189,-0.395,0.479,-433.228,-155.457,-26.367
-0.154,-0.412,0.589,-417.786,-124.451,-21.301
-0.071,-0.538,0.670,-403.381,-93.872,-20.813
-0.042,-0.573,0.724,-384.766,-70.007,-28.931
-0.022,-0.469,0.745,-358.276,-57.861,-37.109
-0.092,-0.505,0.802,-322.571,-45.105,-40.527
-0.221,-0.541,0.953,-281.677,-28.381,-51.025
-0.167,-0.443,1.053,-248.596,-17.578,-70.007
-0.059,-0.314,1.065,-231.689,-14.221,-83.130
-0.134,-0.214,1.058,-219.666,-20.813,-82.581
-0.101,-0.186,0.980,-207.947,-25.635,-76.172
-0.036,-0.093,0.939,-202.576,-34.546,-65.125
-0.100,-0.052,0.841,-198.364,-47.913,-50.842
-0.249,-0.105,0.797,-186.707,-48.645,-39.246
-0.371,-0.159,0.842,-169.312,-42.114,-37.170
-0.425,-0.150,0.862,-157.959,-36.438,-44.006
-0.436,-0.133,0.821,-151.550,-33.386,-48.645
-0.439,-0.117,0.735,-144.531,-33.203,-47.852
-0.457,-0.119,0.630,-139.832,-34.973,-42.603
-0.518,-0.147,0.499,-138.184,-31.921,-35.156
-0.590,-0.186,0.398,-134.949,-21.912,-31.738
-0.657,-0.218,0.403,-129.578,-6.714,-35.217
-0.694,-0.181,0.452,-122.803,11.597,-42.786
-0.669,-0.105,0.475,-112.854,31.372,-47.913
-0.703,-0.084,0.649,-96.375,51.941,-45.288
-0.671,-0.053,0.917,-81.421,72.937,-38.330
-0.526,0.005,1.146,-77.026,93.384,-29.602
-0.333,0.013,1.295,-75.867,108.826,-16.052
-0.171,-0.057,1.458,-68.481,116.638,-1.343
-0.009,-0.132,1.671,-59.692,118.713,7.507
0.166,-0.173,1.870,-58.044,117.981,9.766
0.300,-0.151,2.027,-59.387,111.816,9.216
0.427,-0.121,2.165,-55.664,99.670,7.202
0.529,-0.094,2.229,-45.776,82.947,4.028
0.604,-0.076,2.209,-31.799,61.279,-0.916
0.641,-0.064,2.108,-15.503,34.546,-6.836
0.613,-0.047,1.957,1.282,6.104,-14.587
0.543,-0.035,1.777,17.761,-19.897,-22.583
0.476,-0.021,1.588,30.701,-41.138,-28.687
0.372,-0.009,1.393,39.368,-55.969,-31.494
0.263,-0.021,1.225,46.082,-66.223,-30.396
0.165,-0.036,1.087,49.683,-71.838,-28.625
0.108,-0.038,0.953,47.607,-71.411,-26.001
0.086,-0.047,0.821,42.908,-67.505,-21.912
0.046,-0.055,0.718,36.133,-61.768,-16.907
0.006,-0.069,0.662,28.076,-54.260,-13.245
-0.002,-0.041,0.621,19.958,-45.532,-12.085
1.360,1.439,-0.373,171.875,45.288,57.556
1.778,1.685,-0.388,174.744,63.110,36.133
2.250,1.925,-0.605,182.983,71.350,30.945
2.483,1.936,-0.837,189.941,60.364,67.139
2.340,1.516,-1.185,175.903,40.100,130.737
2.108,0.832,-1.495,159.119,19.531,176.697
1.820,0.075,-1.533,131.714,-1.587,188.782
1.544,-0.442,-1.410,69.885,-13.611,170.593
1.381,-0.647,-1.305,-8.423,-9.094,130.249
1.301,-0.635,-1.242,-66.589,4.578,75.928
1.273,-0.498,-1.204,-94.055,17.822,18.860
1.247,-0.229,-1.147,-111.267,20.386,-29.724
1.227,0.048,-1.139,-140.686,11.963,-64.575
1.194,0.295,-1.202,-182.922,-1.221,-84.961
1.167,0.480,-1.281,-221.619,-17.822,-95.886
1.138,0.577,-1.300,-251.709,-37.842,-98.755
1.083,0.536,-1.247,-279.419,-57.129,-94.788
1.048,0.421,-1.191,-309.143,-74.158,-88.867
1.027,0.278,-1.099,-338.257,-91.492,-83.191
1.016,0.093,-0.990,-365.417,-109.436,-80.200
0.976,-0.158,-0.855,-391.724,-125.916,-79.773
0.946,-0.349,-0.730,-422.180,-143.250,-82.520
0.953,-0.386,-0.681,-454.712,-161.377,-92.163
1.007,-0.322,-0.744,-478.760,-179.138,-105.530
1.000,-0.276,-0.732,-488.708,-193.787,-115.784
0.928,-0.293,-0.718,-486.145,-204.224,-123.718
0.924,-0.192,-0.646,-468.506,-212.524,-131.165
0.837,-0.211,-0.590,-440.857,-219.543,-125.610
0.733,-0.317,-0.424,-415.955,-231.079,-125.793
0.655,-0.396,-0.307,-405.884,-234.680,-124.084
0.536,-0.376,-0.291,-408.325,-227.905,-119.751
0.437,-0.382,-0.282,-403.748,-216.248,-107.483
0.366,-0.488,-0.209,-385.620,-199.951,-91.919
0.362,-0.635,-0.075,-363.831,-180.359,-78.857
0.476,-0.784,0.076,-346.436,-164.673,-68.115
0.600,-0.894,0.189,-345.032,-157.959,-56.458
0.642,-0.912,0.215,-362.854,-163.025,-42.969
0.525,-0.778,0.180,-391.296,-179.138,-27.588
0.257,-0.581,0.113,-408.264,-198.914,-10.925
-0.014,-0.512,0.163,-399.719,-205.505,-2.014
-0.221,-0.565,0.328,-374.023,-190.063,-2.380
-0.218,-0.670,0.554,-347.290,-154.724,-10.010
-0.053,-0.705,0.714,-334.595,-108.337,-24.475
0.087,-0.741,0.814,-327.087,-69.092,-41.077
0.251,-0.614,0.824,-311.584,-52.917,-57.007
0.344,-0.432,0.711,-290.894,-54.626,-62.134
0.117,-0.354,0.695,-263.733,-60.425,-57.922
-0.066,-0.257,0.779,-230.042,-62.439,-63.477
-0.213,-0.176,0.919,-195.679,-56.030,-74.768
-0.276,-0.229,1.048,-164.917,-32.593,-78.613
-0.196,-0.252,1.168,-141.541,-11.230,-79.529
-0.022,-0.271,1.239,-130.920,-8.423,-73.792
0.064,-0.293,1.218,-133.179,-21.118,-58.716
0.051,-0.336,1.137,-140.564,-39.551,-38.757
0.031,-0.356,0.978,-145.142,-59.509,-22.827
0.005,-0.255,0.787,-146.606,-73.669,-13.794
-0.184,-0.254,0.709,-138.062,-72.083,-8.667
-0.327,-0.304,0.871,-111.023,-58.167,-13.672
-0.255,-0.300,1.028,-85.693,-43.091,-29.236
-0.162,-0.274,1.027,-74.890,-32.898,-35.339
-0.170,-0.284,0.967,-65.125,-36.743,-29.297
-0.234,-0.334,0.908,-57.983,-49.438,-19.531
-0.261,-0.413,0.805,-63.416,-56.641,-11.169
-0.318,-0.420,0.711,-78.186,-55.054,-5.188
-0.344,-0.409,0.668,-89.966,-48.645,-2.869
-0.339,-0.405,0.680,-93.201,-40.039,-3.601
-0.335,-0.377,0.654,-91.553,-31.982,-5.554
-0.365,-0.377,0.616,-85.632,-25.146,-7.935
-0.361,-0.395,0.590,-75.500,-20.935,-12.756
-0.386,-0.396,0.536,-68.604,-17.761,-19.409
-0.402,-0.396,0.436,-63.965,-14.526,-25.208
-0.412,-0.363,0.303,-57.495,-12.695,-31.372
-0.453,-0.354,0.201,-51.086,-10.193,-35.706
-0.493,-0.375,0.174,-46.875,-6.042,-38.391
-0.479,-0.338,0.163,-47.791,1.709,-39.185
-0.445,-0.348,0.173,-52.368,17.090,-34.180
-0.462,-0.375,0.331,-53.833,37.354,-27.832
-0.393,-0.342,0.547,-58.167,58.044,-26.123
-0.232,-0.218,0.744,-69.092,78.674,-27.771
-0.010,-0.063,0.978,-74.280,96.924,-28.381
0.220,0.049,1.335,-70.557,108.948,-26.794
0.471,0.125,1.704,-68.787,114.136,-23.865
0.676,0.162,1.955,-71.411,111.694,-21.179
0.730,0.214,2.104,-70.007,97.107,-20.142
0.677,0.242,2.219,-56.274,73.730,-21.362
0.594,0.221,2.246,-30.518,49.255,-23.071
0.502,0.142,2.180,-1.160,25.879,-22.827
0.408,0.035,2.054,21.240,5.798,-20.935
0.329,-0.068,1.896,30.640,-8.850,-18.494
0.241,-0.150,1.737,31.067,-19.287,-15.442
0.152,-0.219,1.621,29.419,-26.428,-12.390
0.111,-0.265,1.500,26.245,-29.602,-11.230
0.080,-0.272,1.405,24.780,-31.982,-10.803
0.084,-0.265,1.287,22.949,-33.630,-10.315
0.085,-0.233,1.166,21.851,-34.180,-9.949
0.076,-0.209,1.061,22.705,-36.011,-10.559
0.089,-0.179,0.965,22.339,-36.194,-12.207
0.113,-0.167,0.887,20.996,-34.668,-14.465
0.112,-0.141,0.831,17.090,-30.945,-17.334
0.080,-0.099,0.811,11.841,-26.123,-19.714
0.059,-0.063,0.814,9.033,-20.996,-21.484
0.060,-0.028,0.818,8.484,-16.113,-21.423
0.066,0.000,0.814,7.996,-12.695,-18.982
0.064,0.008,0.800,7.324,-11.475,-13.977
0.042,0.013,0.776,5.737,-10.254,-8.545
0.036,0.016,0.772,2.502,-7.568,-4.456
0.052,0.012,0.789,-1.770,-3.784,-1.404
0.065,-0.004,0.791,-5.920,-1.038,1.404
0.051,-0.020,0.789,-9.460,0.183,2.502
0.026,-0.009,0.811,-12.024,2.319,1.892
0.007,0.001,0.867,-11.780,6.958,-0.061
0.009,0.015,0.943,-8.545,11.292,-2.197
0.025,0.028,0.995,-5.249,13.000,-2.991
0.032,0.035,1.018,-1.587,12.085,-0.732
0.036,0.024,1.020,0.854,9.888,3.113
0.056,-0.012,1.010,1.526,8.728,7.446
0.081,-0.036,1.017,-0.610,9.705,10.803
0.095,-0.044,1.040,-5.127,10.559,12.817
0.105,-0.039,1.054,-8.240,10.132,14.038
